Folder: EIS/data

Note: README.md
# Studienarbeit  

The code is about the student research project: Data preprocessing and database building for all-solid-state battery tests: a preparation for data-driven modeling

In the project a database is established to store the battery test data. Then the data are analyzed and processed.

To run the code, first put all raw data in .mpr file into the folders 'raw_data/form' and 'raw_data/cycle'. Then change the connection setting in Dataset_EIS.ipynb.

File: 20220309_(Form02C)EIS_charging_10bis16V_step_01V+(1C+EIS)50cycle_17_GEIS_C08.mpt
EC-Lab ASCII FILE
Nb header lines : 121

Galvano Electrochemical Impedance Spectroscopy

Run on channel : 8 (SN 14384)
User :
CE vs. WE compliance from -10 V to 10 V
Electrode connection : standard
Potential control : Ewe-Ece
Ewe ctrl range : min = 0,00 V, max = 5,00 V
Safety Limits :
	Do not start on E overload
Acquisition started on : 03/09/2022 13:55:05.456
Technique started on : 03/10/2022 07:32:47.091
Loaded Setting File :  C:\DATA\x_Data_VMP3\Extern\InES\Binbin\001_Testing_Profiles\20220308_(Form02C)EIS_charging_10bis16V_step_01V+(1C+EIS)50cycle.mps
Saved on :
	File : 20220309_(Form02C)EIS_charging_10bis16V_step_01V+(1C+EIS)50cycle_17_GEIS_C08.mpr
	Directory : C:\DATA\x_Data_VMP3\Extern\InES\Binbin\20220309_SSB_Cell_03_Form01\
	Host : 134.169.45.143
Device : VMP3 (SN 0787)
Address : 134.169.45.150
EC-Lab for windows v11.42 (software)
Internet server v11.40 (firmware)
Command interpretor v11.40 (firmware)
Electrode material :
Initial state :
Electrolyte :
Comments :
Electrode surface area : 0,000 cm²
Characteristic mass : 0,001 g
Equivalent Weight : 0,000 g/eq.
Density : 0,000 g/cm3
Volume (V) : 0,001 cm³
Record Ece
Record Power
Cycle Definition : Charge/Discharge alternance
Mode                Single sine
Is                  0,000
unit Is             µA
vs.                 <None>
tIs (h:m:s)         0:00:0,0000
record              0
dE (mV)             0,000
dt (s)              0,000
fi                  1,000
unit fi             MHz
ff                  5,000
unit ff             mHz
Nd                  6
Points              per decade
spacing             Logarithmic
Ia/Va               Ia
Ia                  5,000
unit  Ia            µA
va pourcent         0,10
pw                  0,10
Na                  2
corr                0
E range min (V)     0,000
E range max (V)     5,000
I Range             10 µA
Bandwidth           5
nc cycles           0
goto Ns'            0
nr cycles           0
inc. cycle          0

Number of loops : 50
Loop 0 from point number 0 to 49
Loop 1 from point number 50 to 99
Loop 2 from point number 100 to 149
Loop 3 from point number 150 to 199
Loop 4 from point number 200 to 249
Loop 5 from point number 250 to 299
Loop 6 from point number 300 to 349
Loop 7 from point number 350 to 399
Loop 8 from point number 400 to 449
Loop 9 from point number 450 to 499
Loop 10 from point number 500 to 549
Loop 11 from point number 550 to 599
Loop 12 from point number 600 to 649
Loop 13 from point number 650 to 699
Loop 14 from point number 700 to 749
Loop 15 from point number 750 to 799
Loop 16 from point number 800 to 849
Loop 17 from point number 850 to 899
Loop 18 from point number 900 to 949
Loop 19 from point number 950 to 999
Loop 20 from point number 1000 to 1049
Loop 21 from point number 1050 to 1099
Loop 22 from point number 1100 to 1149
Loop 23 from point number 1150 to 1199
Loop 24 from point number 1200 to 1249
Loop 25 from point number 1250 to 1299
Loop 26 from point number 1300 to 1349
Loop 27 from point number 1350 to 1399
Loop 28 from point number 1400 to 1449
Loop 29 from point number 1450 to 1499
Loop 30 from point number 1500 to 1549
Loop 31 from point number 1550 to 1599
Loop 32 from point number 1600 to 1649
Loop 33 from point number 1650 to 1699
Loop 34 from point number 1700 to 1749
Loop 35 from point number 1750 to 1799
Loop 36 from point number 1800 to 1849
Loop 37 from point number 1850 to 1899
Loop 38 from point number 1900 to 1949
Loop 39 from point number 1950 to 1999
Loop 40 from point number 2000 to 2049
Loop 41 from point number 2050 to 2099
Loop 42 from point number 2100 to 2149
Loop 43 from point number 2150 to 2199
Loop 44 from point number 2200 to 2249
Loop 45 from point number 2250 to 2299
Loop 46 from point number 2300 to 2349
Loop 47 from point number 2350 to 2399
Loop 48 from point number 2400 to 2449
Loop 49 from point number 2450 to 2499

freq/Hz	Re(Z)/Ohm	-Im(Z)/Ohm	|Z|/Ohm	Phase(Z)/deg	time/s	<Ewe>/V	<I>/mA	Cs/µF	Cp/µF	cycle number	|Ewe|/V	|I|/A	Ns	I Range	(Q-Qo)/mA.h	<Ece>/V	|Ece|/V	Phase(Zce)/deg	|Zce|/Ohm	Re(Zce)/Ohm	-Im(Zce)/Ohm	Phase(Zwe-ce)/deg	|Zwe-ce|/Ohm	Re(Zwe-ce)/Ohm	-Im(Zwe-ce)/Ohm	P/W	Re(Y)/Ohm-1	Im(Y)/Ohm-1	|Y|/Ohm-1	Phase(Y)/deg	dq/mA.h
1,0000186E+006	-2,9241573E+001	4,5741653E+001	5,4289673E+001	-1,2258984E+002	6,346163503756979E+004	1,3571516E+001	1,2807947E-005	3,4793667E-003	2,4699576E-003	1,000000000000000E+000	2,8144199E-004	5,1840798E-006	0	14	1,500449503134228E-009	1,3447320E+001	1,8069781E-004	4,3205238E+001	3,4856293E+001	2,5406961E+001	-2,3863098E+001	-9,9941147E+001	2,2212055E+001	-3,8346119E+000	2,1878555E+001	0,0000000E+000	-9,9212481E-003	1,5519489E-002	1,8419709E-002	1,2258984E+002	1,500449503134228E-009
8,5907173E+001	-5,2469671E-001	-1,2474378E+001	1,2485408E+001	9,2408554E+001	1,062452329286229E+005	1,3577939E+001	7,4620157E-006	-1,4851552E+002	-1,4825322E+002	3,000000000000000E+000	5,9497619E-005	4,7653725E-006	0	14	1,602298010362170E-008	1,3463437E+001	1,8031824E-002	-1,7685715E+001	3,7839275E+003	3,6050886E+003	1,1495403E+003	-1,7507971E+001	3,7796560E+003	3,6045640E+003	1,1370659E+003	0,0000000E+000	-3,3659146E-003	-8,0022737E-002	8,0093496E-002	-9,2408554E+001	-1,509736037734100E-009
7,3873415E-003	2,6642445E+001	1,3417170E+001	2,9830191E+001	-2,6729883E+001	1,448881364657022E+005	1,3572447E+001	6,7011160E-006	1,6057245E+006	3,2484844E+005	5,000000000000000E+000	1,4210741E-004	4,7638787E-006	0	14	-5,444563031068709E-006	1,3389630E+001	8,0994777E-002	-2,6173557E+001	1,7001855E+004	1,5258520E+004	7,4993774E+003	-2,6174532E+001	1,7031684E+004	1,5285162E+004	7,5127944E+003	0,0000000E+000	2,9940702E-002	1,5078176E-002	3,3523083E-002	2,6729883E+001	-1,484712084160661E-005
1,8742110E+002	3,5708201E+000	1,7239801E+000	3,9652066E+000	-2,5771095E+001	1,985674197045043E+005	1,3577469E+001	7,2645976E-006	4,9257166E+002	9,3111275E+001	8,000000000000000E+000	1,8917954E-005	4,7709882E-006	0	14	4,351528506107469E-008	1,3463196E+001	1,9223263E-002	-2,5746155E+001	4,0291995E+003	3,6292102E+003	1,7502231E+003	-2,5746181E+001	4,0331646E+003	3,6327810E+003	1,7519471E+003	0,0000000E+000	2,2711003E-001	1,0964797E-001	2,5219366E-001	2,5771095E+001	-6,487843248111049E-009
1,6098291E-002	2,8630341E+001	-1,2474413E+001	3,1229912E+001	2,3543049E+001	2,344298465568549E+005	1,3574070E+001	6,5525978E-006	-7,9253825E+005	-1,2645004E+005	1,000000000000000E+001	1,4892954E-004	4,7688109E-006	0	14	1,325883214961260E-005	1,3318349E+001	5,9770942E-002	-9,3254890E+000	1,2533721E+004	1,2368071E+004	2,0309996E+003	-9,2481737E+000	1,2559962E+004	1,2396701E+004	2,0185253E+003	0,0000000E+000	2,9355198E-002	-1,2790238E-002	3,2020584E-002	-2,3543049E+001	7,993781871063573E-006
4,0908368E+002	2,3449125E+000	5,9717326E+000	6,4156218E+000	-6,8561615E+001	2,871124141013948E+005	1,3576431E+001	7,3526639E-006	6,5148979E+001	5,6445694E+001	1,300000000000000E+001	3,0603969E-005	4,7702265E-006	0	14	1,912397592706030E-009	1,3450768E+001	1,5410962E-002	-3,2104980E+001	3,2306563E+003	2,7366106E+003	1,7170040E+003	-3,2172482E+001	3,2358188E+003	2,7389556E+003	1,7229757E+003	0,0000000E+000	5,6970391E-002	1,4508511E-001	1,5586954E-001	6,8561615E+001	-1,977593378878990E-009
3,5195883E-002	6,0695658E+000	8,6114731E+000	1,0535516E+001	-5,4822929E+001	3,221432718009762E+005	1,3574545E+001	6,3490183E-006	5,2511063E+005	3,5082788E+005	1,500000000000000E+001	5,0243209E-005	4,7689368E-006	0	14	1,984288028908218E-006	1,3442389E+001	4,8971236E-002	-8,7519770E+000	1,0268795E+004	1,0149228E+004	1,5624741E+003	-8,7942839E+000	1,0276106E+004	1,0155297E+004	1,5710856E+003	0,0000000E+000	5,4682206E-002	7,7582866E-002	9,4917044E-002	5,4822929E+001	-1,685637024785137E-006
8,9299957E+002	-2,9903674E+000	8,7033093E-001	3,1144459E+000	-1,6377264E+002	3,737257785652652E+005	1,3577186E+001	5,7815082E-006	2,0477856E+002	1,5991592E+001	1,800000000000000E+001	1,4928529E-005	4,7933177E-006	0	14	2,068706036382335E-008	1,3435093E+001	1,1570899E-002	-3,9169193E+001	2,4139646E+003	1,8715085E+003	1,5246904E+003	-3,9230087E+001	2,4121973E+003	1,8685182E+003	1,5255608E+003	0,0000000E+000	-3,0829254E-001	8,9726903E-002	3,2108441E-001	1,6377264E+002	5,371853447842214E-010
7,6773763E-002	8,7134113E+000	5,2221718E+000	1,0158475E+001	-3,0935345E+001	4,080975026711985E+005	1,3573976E+001	6,7921442E-006	3,9696859E+005	1,0490627E+005	2,000000000000000E+001	4,8418868E-005	4,7663520E-006	0	14	-1,153470752176317E-006	1,3409194E+001	4,3580160E-002	-6,5401554E+000	9,1432939E+003	9,0837920E+003	1,0414169E+003	-6,5664210E+000	9,1525469E+003	9,0925059E+003	1,0466390E+003	0,0000000E+000	8,4436685E-002	5,0605085E-002	9,8439977E-002	3,0935345E+001	4,315037140614524E-007
1,9481171E+003	2,4146008E+000	-5,3955597E-001	2,4741499E+000	1,2596129E+001	4,651674020314813E+005	1,3575159E+001	6,4278906E-006	-1,5141489E+002	-7,2009459E+000	2,300000000000000E+001	1,2115790E-005	4,8969505E-006	0	14	1,469405390809521E-008	1,3495509E+001	6,2633860E-003	-4,3996170E+001	1,2790381E+003	9,2012244E+002	8,8843298E+002	-4,3903748E+001	1,2804020E+003	9,2253705E+002	8,8789343E+002	0,0000000E+000	3,9445123E-001	-8,8142321E-002	4,0417922E-001	-1,2596129E+001	-1,568834567478917E-009
1,6750640E-001	6,0660324E+000	-1,0594026E+001	1,2207789E+001	6,0204983E+001	5,018158676025793E+005	1,3574607E+001	7,0139622E-006	-8,9686633E+004	-6,7542273E+004	2,500000000000000E+001	5,8167865E-005	4,7648155E-006	0	14	8,828279418965823E-007	1,3500801E+001	3,1162031E-002	-4,4690166E+000	6,5400288E+003	6,5201445E+003	5,0959897E+002	-4,3724232E+000	6,5452603E+003	6,5262104E+003	4,9900494E+002	0,0000000E+000	4,0703394E-002	-7,1086466E-002	8,1914909E-002	-6,0204983E+001	-3,446479115094309E-008
4,2448467E+003	6,6341697E-003	-2,5937862E+000	2,5937948E+000	8,9853455E+001	5,560920239681862E+005	1,3572692E+001	1,2924866E-005	-1,4455194E+001	-1,4455099E+001	2,800000000000000E+001	1,2628660E-005	4,8687971E-006	0	14	1,788250941910974E-008	1,3491781E+001	3,7625262E-003	-4,9999493E+001	7,7278351E+002	4,9674091E+002	5,9198212E+002	-4,9875183E+001	7,7080261E+002	4,9674753E+002	5,8938831E+002	0,0000000E+000	9,8608306E-004	-3,8553426E-001	3,8553551E-001	-8,9853455E+001	4,125229541191150E-009
3,6507010E-001	6,1316795E+000	-5,8792958E+000	8,4949169E+000	4,3796234E+001	5,923034972888790E+005	1,3573767E+001	7,3812516E-006	-7,4151258E+004	-3,5518195E+004	3,000000000000000E+001	4,0489693E-005	4,7663434E-006	0	14	-3,893417806411826E-007	1,3481958E+001	2,8912984E-002	-5,2076263E+000	6,0660723E+003	6,0410337E+003	5,5058789E+002	-5,1471229E+000	6,0716489E+003	6,0471655E+003	5,4470862E+002	0,0000000E+000	8,4969133E-002	-8,1471749E-002	1,1771745E-001	-4,3796234E+001	-5,246486067557043E-008
9,2692256E+003	6,2686986E-001	1,8593522E+000	1,9621816E+000	-7,1368759E+001	6,478733616557848E+005	1,3576356E+001	1,4992375E-005	9,2345343E+000	8,2920132E+000	3,300000000000000E+001	9,3269464E-006	4,7533554E-006	0	14	2,037425814789786E-008	1,3488413E+001	2,1907911E-003	-5,6334755E+001	4,6089359E+002	2,5549159E+002	3,8359735E+002	-5,6397766E+001	4,6278888E+002	2,5611847E+002	3,8545670E+002	0,0000000E+000	1,6281675E-001	4,8292896E-001	5,0963682E-001	7,1368759E+001	6,220136523527090E-009
7,9621863E-001	1,0514630E+000	5,3442574E+000	5,4467111E+000	-7,8869431E+001	6,859543254804006E+005	1,3573842E+001	7,4538016E-006	3,7402484E+004	3,6008621E+004	3,500000000000000E+001	2,5962654E-005	4,7666663E-006	0	14	2,852617607652392E-007	1,3492622E+001	2,3549786E-002	-6,1883359E+000	4,9405151E+003	4,9117266E+003	5,3257251E+002	-6,2486176E+000	4,9421392E+003	4,9127778E+003	5,3791675E+002	0,0000000E+000	3,5442580E-002	1,8014354E-001	1,8359703E-001	7,8869431E+001	3,295918986147070E-008
2,0227139E+004	2,7447207E+000	-5,9431237E-001	2,8083267E+000	1,2217604E+001	7,447826852775570E+005	1,3574035E+001	1,5563732E-005	-1,3239480E+001	-5,9293240E-001	3,800000000000000E+001	1,3231544E-005	4,7115400E-006	0	14	8,211500167590202E-009	1,3484885E+001	1,1859402E-003	-6,0423187E+001	2,5170969E+002	1,2424137E+002	2,1891060E+002	-5,9815102E+001	2,5256181E+002	1,2698609E+002	2,1831628E+002	0,0000000E+000	3,4801894E-001	-7,5356297E-002	3,5608393E-001	-1,2217604E+001	2,296530011992420E-009
1,7399776E+000	7,0308080E+000	2,5283828E+000	7,4716115E+000	-1,9779337E+001	7,850186930635790E+005	1,3581273E+001	8,2401129E-006	3,6177090E+004	4,1427690E+003	4,000000000000000E+001	3,5591180E-005	4,7635212E-006	0	14	1,772625074611274E-007	1,3485847E+001	2,0165561E-002	-6,7265325E+000	4,2333306E+003	4,2041904E+003	4,9585272E+002	-6,7493324E+000	4,2406094E+003	4,2112212E+003	4,9838110E+002	0,0000000E+000	1,2594377E-001	4,5291245E-002	1,3383994E-001	1,9779337E+001	7,497944737538849E-008
4,4128563E+004	5,9812255E+000	-3,6879900E+000	7,0268292E+000	3,1657749E+001	8,465469635665156E+005	1,3573911E+001	1,7689457E-005	-9,7793645E-001	-2,6938367E-001	4,300000000000000E+001	3,3677494E-005	4,7927015E-006	0	14	2,023015615407076E-008	1,3488734E+001	6,5181678E-004	-6,3623505E+001	1,3600195E+002	6,0421272E+001	1,2184335E+002	-6,0664314E+001	1,3553590E+002	6,6402496E+001	1,1815536E+002	0,0000000E+000	1,2113548E-001	-7,4691452E-002	1,4231169E-001	-3,1657749E+001	3,429306527222154E-009
3,7924759E+000	7,5648007E+000	1,2478810E+001	1,4592701E+001	-5,8775269E+001	8,885544825863559E+005	1,3575030E+001	6,9856260E-006	3,3629788E+003	2,4592297E+003	4,500000000000000E+001	6,9557071E-005	4,7665658E-006	0	14	9,606330132760377E-008	1,3467486E+001	1,9081252E-002	-7,1528764E+000	4,0031445E+003	3,9719897E+003	4,9846039E+002	-7,3162398E+000	4,0122205E+003	3,9795544E+003	5,1093921E+002	0,0000000E+000	3,5524346E-002	5,8600567E-002	6,8527408E-002	5,8775269E+001	6,068406584512962E-008
9,6283031E+004	1,1522597E+001	-6,1621733E+000	1,3066853E+001	2,8137440E+001	9,529276490154117E+005	1,3578723E+001	1,5333499E-005	-2,6824799E-001	-5,9657123E-002	4,800000000000000E+001	6,2689898E-005	4,7976282E-006	0	14	4,048627263677594E-009	1,3481478E+001	3,2394304E-004	-6,4091980E+001	6,7521500E+001	2,9502012E+001	6,0735363E+001	-5,3066513E+001	6,8273361E+001	4,1024609E+001	5,4573189E+001	0,0000000E+000	6,7485183E-002	-3,6090422E-002	7,6529525E-002	-2,8137440E+001	-1,159732707088147E-009
8,2759562E+000	4,1312170E+000	-3,4591511E-001	4,1456738E+000	4,7863259E+000	9,965955072063911E+005	1,3575648E+001	9,6761923E-006	-5,5594578E+004	-3,8706262E+002	5,000000000000000E+001	1,9757264E-005	4,7657550E-006	0	14	4,522788799386035E-008	1,3456100E+001	1,9166715E-002	-8,3877659E+000	4,0217585E+003	3,9787397E+003	5,8666113E+002	-8,3743200E+000	4,0257952E+003	3,9828708E+003	5,8631525E+002	0,0000000E+000	2,4037415E-001	-2,0127011E-002	2,4121532E-001	-4,7863259E+000	2,230443790568239E-008
5,0018891E-003	5,3889820E+001	-7,7469788E+000	5,4443810E+001	8,1805601E+000	9,978997313618660E+005	1,3575764E+001	6,6488706E-006	-4,1072740E+006	-8,3161328E+004	5,000000000000000E+001	2,5949630E-004	4,7663143E-006	0	14	-1,349772057199193E-005	1,3451691E+001	4,2138681E-002	-1,2859341E+001	8,8409365E+003	8,6192002E+003	1,9676240E+003	-1,2733391E+001	8,8917715E+003	8,6730898E+003	1,9598771E+003	0,0000000E+000	1,8180663E-002	-2,6135773E-003	1,8367561E-002	-8,1805601E+000	-2,316529923526872E-005